{
  "resourceType": "Bundle",
  "id": "NZ-IPS-20231121031219",
  "language": "en-NZ",
  "identifier": {
    "system": "urn:oid:2.16.724.4.8.10.200.10",
    "value": "3d5006e9-f003-4a78-a253-40ab405b7ef2"
  },
  "type": "document",
  "timestamp": "2023-11-21T03:12:19.1242772+00:00",
  "entry": [
    {
      "fullUrl": "https://terminz.azurewebsites.net/fhir/Composition/9b9e4f64-c976-47e9-a8a5-4b9b0484a709",
      "resource": {
        "resourceType": "Composition",
        "id": "9b9e4f64-c976-47e9-a8a5-4b9b0484a709",
        "meta": {
          "versionId": "1"
        },
        "language": "en-NZ",
        "text": {
          "status": "generated",
          "div": "<div xmlns='http://www.w3.org/1999/xhtml' lang='en-NZ' xml:lang='en-NZ'>International Patient Summary for Iosefa Test-Fuimaono</div>"
        },
        "identifier": {
          "system": "urn:oid:2.16.840.1.113883.2.18.7.2",
          "value": "3d5006e9-f003-4a78-a253-40ab405b7ef2"
        },
        "status": "final",
        "type": {
          "coding": [
            {
              "system": "http://loinc.org",
              "code": "60591-5",
              "display": "Patient summary Document"
            }
          ]
        },
        "subject": {
          "reference": "Patient/ZKT9319"
        },
        "date": "2023-11-21",
        "author": [
          {
            "reference": "Organization/9c9542df-e45f-4131-9d44-8f5974e56d5b"
          }
        ],
        "title": "International Patient Summary",
        "confidentiality": "N",
        "attester": [
          {
            "mode": "professional",
            "time": "2023-11-21",
            "party": {
              "reference": "PractitionerRole/c9288aea-5e73-4182-8231-aacbe50d3244"
            }
          }
        ],
        "custodian": {
          "reference": "Organization/644f2fb9-c264-4c32-898b-4048dddd6d1b"
        },
        "relatesTo": [
          {
            "code": "transforms",
            "targetIdentifier": {
              "system": "urn:oid:2.16.840.1.113883.2.18.7.2",
              "value": "3d5006e9-f003-4a78-a253-40ab405b7ef2"
            }
          }
        ],
        "event": [
          {
            "code": [
              {
                "coding": [
                  {
                    "system": "http://terminology.hl7.org/CodeSystem/v3-ActClass",
                    "code": "PCPR"
                  }
                ]
              }
            ],
            "period": {
              "end": "2023-11-21"
            }
          }
        ],
        "section": [
          {
            "title": "Allergies and Intolerances",
            "code": {
              "coding": [
                {
                  "system": "http://loinc.org",
                  "code": "48765-2",
                  "display": "Allergies and adverse reactions Document"
                }
              ]
            },
            "text": {
              "status": "generated",
              "div": "<div xmlns=\"http://www.w3.org/1999/xhtml\">\r\n  <table>\r\n    <thead>\r\n      <tr>\r\n        <th>Code</th>\r\n        <th>Type</th>\r\n        <th>Recorded On</th>\r\n        <th>Asserted By</th>\r\n        <th>Clinical Status</th>\r\n        <th>Verification Status</th>\r\n      </tr>\r\n    </thead>\r\n    <tbody>\r\n      <tr>\r\n        <td>Flucloxacillin-containing product</td>\r\n        <td>Allergy</td>\r\n        <td />\r\n        <td>Patient/ZKT9319</td>\r\n        <td>active</td>\r\n        <td>confirmed</td>\r\n      </tr>\r\n      <tr>\r\n        <td>Diazepam-containing product</td>\r\n        <td>Allergy</td>\r\n        <td />\r\n        <td>Patient/ZKT9319</td>\r\n        <td>active</td>\r\n        <td>confirmed</td>\r\n      </tr>\r\n    </tbody>\r\n  </table>\r\n</div>"
            },
            "entry": [
              {
                "reference": "AllergyIntolerance/1dfacb6d-4260-4fd4-84e9-a1c13aafa72c"
              },
              {
                "reference": "AllergyIntolerance/e9b9aeaf-e5ac-4f72-b01d-df4c6107f746"
              }
            ]
          },
          {
            "title": "Problem List",
            "code": {
              "coding": [
                {
                  "system": "http://loinc.org",
                  "code": "11450-4",
                  "display": "Problem list - Reported"
                }
              ]
            },
            "text": {
              "status": "generated",
              "div": "<div xmlns=\"http://www.w3.org/1999/xhtml\">\r\n  <table>\r\n    <thead>\r\n      <tr>\r\n        <th>Condition</th>\r\n        <th>Category</th>\r\n        <th>Recorded On</th>\r\n        <th>Clinical Status</th>\r\n        <th>Verification Status</th>\r\n      </tr>\r\n    </thead>\r\n    <tbody>\r\n      <tr>\r\n        <td>Postconcussion syndrome</td>\r\n        <td>Problem List Item</td>\r\n        <td />\r\n        <td>active</td>\r\n        <td>confirmed</td>\r\n      </tr>\r\n      <tr>\r\n        <td>Diabetes type 2 on insulin</td>\r\n        <td>Problem List Item</td>\r\n        <td />\r\n        <td>active</td>\r\n        <td>confirmed</td>\r\n      </tr>\r\n      <tr>\r\n        <td>Gout</td>\r\n        <td>Problem List Item</td>\r\n        <td />\r\n        <td>active</td>\r\n        <td>confirmed</td>\r\n      </tr>\r\n      <tr>\r\n        <td>Benign essential hypertension</td>\r\n        <td>Problem List Item</td>\r\n        <td />\r\n        <td>active</td>\r\n        <td>confirmed</td>\r\n      </tr>\r\n      <tr>\r\n        <td>Anxiety disorder due to a general medical condition</td>\r\n        <td>Problem List Item</td>\r\n        <td />\r\n        <td>inactive</td>\r\n        <td>confirmed</td>\r\n      </tr>\r\n      <tr>\r\n        <td>Fracture of neck of femur</td>\r\n        <td>Problem List Item</td>\r\n        <td />\r\n        <td>inactive</td>\r\n        <td>confirmed</td>\r\n      </tr>\r\n    </tbody>\r\n  </table>\r\n</div>"
            },
            "entry": [
              {
                "reference": "Condition/2eafb947-e816-4d9f-978b-c91d0dbe4acc"
              },
              {
                "reference": "Condition/1923f2ca-043b-432c-9eed-404c81474e60"
              },
              {
                "reference": "Condition/4f40d5e3-9a5f-4e3f-b799-c3378da8e7dd"
              },
              {
                "reference": "Condition/08992112-ac66-4c66-a803-89f80bb6d2aa"
              },
              {
                "reference": "Condition/9b54fc7a-8302-45cc-9ff6-e60c623c5bf9"
              },
              {
                "reference": "Condition/dd40111a-683f-4d72-bccc-3c6848bc0813"
              }
            ]
          },
          {
            "title": "Medication Summary",
            "code": {
              "coding": [
                {
                  "system": "http://loinc.org",
                  "code": "10160-0",
                  "display": "History of Medication use Narrative"
                }
              ]
            },
            "text": {
              "status": "generated",
              "div": "<div xmlns=\"http://www.w3.org/1999/xhtml\">\r\n  <table>\r\n    <thead>\r\n      <tr>\r\n        <th>Drug</th>\r\n        <th>Status</th>\r\n        <th>Effective</th>\r\n        <th>Instructions</th>\r\n      </tr>\r\n    </thead>\r\n    <tbody>\r\n      <tr>\r\n        <td>insulin glargine 100 international units/mL injection, 10 mL vial</td>\r\n        <td>Active</td>\r\n        <td>2023-02-21</td>\r\n        <td>Inject 20 units per day into your upper arms, abdomen or thights.You should vary the site where you inject each dose of Lantus. This helps reduce your risk of certain side effects, such as pits or lumps in your skin.</td>\r\n      </tr>\r\n      <tr>\r\n        <td>dulaglutide 1.5 mg/0.5 mL injection, prefilled injection device</td>\r\n        <td>Active</td>\r\n        <td>2023-02-21</td>\r\n        <td>Inject once a week, on the same day each week, into the skin of your stomach, thigh or upper arm. You can use the same area of your body each time, but choose a different place within that area. You can inject it any time of the day, with or without meals.</td>\r\n      </tr>\r\n      <tr>\r\n        <td>metformin hydrochloride 1000 mg tablet</td>\r\n        <td>Active</td>\r\n        <td>2023-02-21</td>\r\n        <td>Take ONE tablet, two times a day, with meals.</td>\r\n      </tr>\r\n      <tr>\r\n        <td>amlodipine 5 mg tablet</td>\r\n        <td>Active</td>\r\n        <td>2023-02-21</td>\r\n        <td>Take ONE tablet at any time of day, but try to make sure it's around the same time every day.</td>\r\n      </tr>\r\n      <tr>\r\n        <td>losartan potassium 50 mg tablet</td>\r\n        <td>Active</td>\r\n        <td>2023-02-21</td>\r\n        <td>Take ONE tablet daily</td>\r\n      </tr>\r\n      <tr>\r\n        <td>aspirin 75 mg tablet: enteric-coated</td>\r\n        <td>Active</td>\r\n        <td>2023-02-21</td>\r\n        <td>Take ONE tablet daily</td>\r\n      </tr>\r\n      <tr>\r\n        <td>allopurinol 300 mg tablet</td>\r\n        <td>Active</td>\r\n        <td>2023-02-21</td>\r\n        <td>Take ONE tablet daily, after meals</td>\r\n      </tr>\r\n    </tbody>\r\n  </table>\r\n</div>"
            },
            "entry": [
              {
                "reference": "MedicationStatement/8ecbe74a-a3fa-4edf-8133-44ca8903a645"
              },
              {
                "reference": "MedicationStatement/06c4eda2-df30-4231-af09-0135e5f84548"
              },
              {
                "reference": "MedicationStatement/4b5f40b9-f59c-4090-81b1-4609ac6b7af8"
              },
              {
                "reference": "MedicationStatement/e19dc087-0055-4feb-a847-72e77cf55a0a"
              },
              {
                "reference": "MedicationStatement/f7a26186-dd57-420f-95be-c0deeee49367"
              },
              {
                "reference": "MedicationStatement/b6b49f33-a0e4-4b94-92f3-caa3267ad4f7"
              },
              {
                "reference": "MedicationStatement/ce2395b9-d7ef-4df0-b38f-fc9be0e44f94"
              }
            ]
          },
          {
            "title": "Immunizations",
            "code": {
              "coding": [
                {
                  "system": "http://loinc.org",
                  "code": "11369-6",
                  "display": "History of Immunization Narrative"
                }
              ]
            },
            "text": {
              "status": "generated",
              "div": "<div xmlns=\"http://www.w3.org/1999/xhtml\">\r\n  <table>\r\n    <thead>\r\n      <tr>\r\n        <th>Vaccine</th>\r\n        <th>Status</th>\r\n        <th>Occurance</th>\r\n        <th>Route</th>\r\n        <th>Dose #</th>\r\n        <th>Series</th>\r\n      </tr>\r\n    </thead>\r\n    <tbody>\r\n      <tr>\r\n        <td>SARS-COV-2 (COVID-19) vaccine, mRNA, spike protein, LNP, preservative free, 30 mcg/0.3mL dose</td>\r\n        <td>Completed</td>\r\n        <td>2022-02-01</td>\r\n        <td>Injection, intramuscular</td>\r\n        <td>2</td>\r\n        <td>12 (At risk, no previous history)</td>\r\n      </tr>\r\n      <tr>\r\n        <td>SARS-COV-2 (COVID-19) vaccine, mRNA, spike protein, LNP, preservative free, 30 mcg/0.3mL dose</td>\r\n        <td>Completed</td>\r\n        <td>2021-08-05</td>\r\n        <td>Injection, intramuscular</td>\r\n        <td>1</td>\r\n        <td>12 (At risk, no previous history)</td>\r\n      </tr>\r\n      <tr>\r\n        <td>Influenza, seasonal, injectable</td>\r\n        <td>Completed</td>\r\n        <td>2019-05-20</td>\r\n        <td>Injection, intramuscular</td>\r\n        <td>1</td>\r\n        <td>1 (Over 65 years (Influenza))</td>\r\n      </tr>\r\n      <tr>\r\n        <td>diphtheria, tetanus toxoids and acellular pertussis vaccine</td>\r\n        <td>Completed</td>\r\n        <td>2019-04-24</td>\r\n        <td>Injection, intramuscular</td>\r\n        <td>1</td>\r\n        <td>6 (Booster)</td>\r\n      </tr>\r\n      <tr>\r\n        <td>tetanus and diphtheria toxoids, not adsorbed, for adult use</td>\r\n        <td>Completed</td>\r\n        <td>2018-04-05</td>\r\n        <td>Injection, intramuscular</td>\r\n        <td>1</td>\r\n        <td>6 (Booster)</td>\r\n      </tr>\r\n      <tr>\r\n        <td>pneumococcal conjugate vaccine, 13 valent</td>\r\n        <td>Completed</td>\r\n        <td>2015-09-25</td>\r\n        <td>Injection, intramuscular</td>\r\n        <td>1</td>\r\n        <td>21 (PCV catch up)</td>\r\n      </tr>\r\n      <tr>\r\n        <td>Influenza, seasonal, injectable</td>\r\n        <td>Completed</td>\r\n        <td>2015-05-01</td>\r\n        <td>Injection, intramuscular</td>\r\n        <td>1</td>\r\n        <td>1 (Over 65 years (Influenza))</td>\r\n      </tr>\r\n    </tbody>\r\n  </table>\r\n</div>"
            },
            "entry": [
              {
                "reference": "Immunization/998e59d9-a7f4-4503-b08e-85ce9b206b0a"
              },
              {
                "reference": "Immunization/fc6b3454-527b-4deb-a266-7f52c63d0d3c"
              },
              {
                "reference": "Immunization/33c971d3-0992-4e93-b904-6325ed4602e3"
              },
              {
                "reference": "Immunization/12c253d4-20e8-4dd4-935c-fd1ec8a49279"
              },
              {
                "reference": "Immunization/70308bba-2bc4-4505-ba9b-520f9d3dc30b"
              },
              {
                "reference": "Immunization/acd3a963-0985-4679-a126-8eb9ed981d36"
              },
              {
                "reference": "Immunization/bae44614-43cc-4df4-94b3-c26d34b0ea37"
              }
            ]
          },
          {
            "title": "Procedures",
            "code": {
              "coding": [
                {
                  "system": "http://loinc.org",
                  "code": "47519-4",
                  "display": "History of Procedures Document"
                }
              ]
            },
            "text": {
              "status": "generated",
              "div": "<div xmlns='http://www.w3.org/1999/xhtml' xml:lang='en-NZ'><table xmlns=\"http://www.w3.org/1999/xhtml\">        <thead>          <tr>            <th>Date(s)</th>            <th>Procedure</th>            <th>Location</th>            <th>Performer</th>            <th>Comments</th>                                  </tr>        </thead>        <tbody>          <tr>            <td>01/09/2020 to 01/09/2020</td>            <td>Operative procedure on hip</td>            <td>Waikato Hospital</td>                                                          </tr>          <tr>            <td>31/03/2018 to 31/03/2018</td>            <td>Hand closure</td>            <td>Samoa</td>                                                          </tr>        </tbody>      </table>    </div>"
            },
            "entry": [
              {
                "reference": "Procedure/8414198c-a43b-4ef1-b06f-3b39fb4b39cc"
              },
              {
                "reference": "Procedure/1096ab80-e982-41b3-85c2-8e1d2466d147"
              }
            ]
          },
          {
            "title": "Results",
            "code": {
              "coding": [
                {
                  "system": "http://loinc.org",
                  "code": "30954-2",
                  "display": "Relevant diagnostic tests/laboratory data Narrative"
                }
              ]
            },
            "text": {
              "status": "generated",
              "div": "<div xmlns='http://www.w3.org/1999/xhtml' xml:lang='en-NZ'><table>        <tbody>          <tr>            <th>Result Group:</th>            <td>Lipids</td>            <th>Result Date:</th>            <td>05 Mar 2023 00:00</td>            <th>Result Status:</th>            <td>completed</td>          </tr>        </tbody>      </table>      <table xmlns=\"http://www.w3.org/1999/xhtml\">        <thead>          <tr>            <th>Result Name</th>            <th>Value</th>            <th>Reference Range</th>            <th>Abnormal Indicator</th>            <th>Comments</th>                                  </tr>        </thead>        <tbody>          <tr>            <td>Total cholesterol:HDL ratio</td>            <td>5.1 mmol/L</td>            <td>&lt;4 mmol/L (high risk)</td>            <td>H</td>                                              </tr>          <tr>            <td>HDL Cholesterol</td>            <td>1.5 mmol/L</td>            <td>&gt;1 mmol/L</td>            <td>N</td>                                              </tr>          <tr>            <td>LDL Cholesterol</td>            <td>3.4 mmol/L</td>            <td>&lt;1.8 mmol/L</td>            <td>H</td>                                              </tr>        </tbody>      </table>            <table>        <tbody>          <tr>            <th>Result Group:</th>            <td>HbA1C</td>            <th>Result Date:</th>            <td>05 Mar 2023 00:00</td>            <th>Result Status:</th>            <td>completed</td>          </tr>        </tbody>      </table>      <table xmlns=\"http://www.w3.org/1999/xhtml\">        <thead>          <tr>            <th>Result Name</th>            <th>Value</th>            <th>Reference Range</th>            <th>Abnormal Indicator</th>            <th>Comments</th>                                  </tr>        </thead>        <tbody>          <tr>            <td>HbA1c</td>            <td>60 mmol/mol</td>            <td>50 – 55 mmol/mol (diabetes)</td>            <td>H</td>                                              </tr>        </tbody>      </table>    </div>"
            },
            "entry": [
              {
                "reference": "Observation/2f3ad263-1b4e-443b-95ca-66d2abb6e927"
              },
              {
                "reference": "Observation/fe53810f-a341-4093-a959-4048ad62f85b"
              },
              {
                "reference": "Observation/6adb76b4-73f3-4552-87a6-09ac3dc1f558"
              },
              {
                "reference": "DiagnosticReport/9e0d995f-a78d-45f4-b3aa-23037972a3e6"
              },
              {
                "reference": "Observation/63ad8984-003c-4e44-bc56-31dd6abc0897"
              },
              {
                "reference": "DiagnosticReport/2da4116e-7158-4d59-b6c4-873b37f7d65f"
              }
            ]
          },
          {
            "title": "Vital Signs",
            "code": {
              "coding": [
                {
                  "system": "http://loinc.org",
                  "code": "8716-3",
                  "display": "Vital signs"
                }
              ]
            },
            "text": {
              "status": "generated",
              "div": "<div xmlns='http://www.w3.org/1999/xhtml' xml:lang='en-NZ'><table>        <tbody>          <tr>            <th>Result Group:</th>            <td>Vital signs, weight, height, head circumference, oxygen saturation and BMI panel</td>            <th>Result Date:</th>            <td>29 Sep 2023 00:00</td>            <th>Result Status:</th>            <td>completed</td>          </tr>        </tbody>      </table>      <table xmlns=\"http://www.w3.org/1999/xhtml\">        <thead>          <tr>            <th>Result Name</th>            <th>Value</th>                                  </tr>        </thead>        <tbody>          <tr>            <td>Body temperature</td>            <td>37.5 C</td>                                  </tr>          <tr>            <td>Heart rate</td>            <td>84 beats/minute</td>                                  </tr>          <tr>            <td>Respiratory rate</td>            <td>18 breaths/minute</td>                                  </tr>          <tr>            <td>Systolic blood pressure</td>            <td>136 mm[Hg]</td>                                  </tr>          <tr>            <td>Diastolic blood pressure</td>            <td>88 mm[Hg]</td>                                  </tr>          <tr>            <td>Body height</td>            <td>1.84 cm</td>                                  </tr>          <tr>            <td>Body weight</td>            <td>104 kg</td>                                  </tr>        </tbody>      </table>            <table>        <tbody>          <tr>            <th>Result Group:</th>            <td>Vital signs, weight, height, head circumference, oxygen saturation and BMI panel</td>            <th>Result Date:</th>            <td>05 Mar 2023 00:00</td>            <th>Result Status:</th>            <td>completed</td>          </tr>        </tbody>      </table>      <table xmlns=\"http://www.w3.org/1999/xhtml\">        <thead>          <tr>            <th>Result Name</th>            <th>Value</th>                                  </tr>        </thead>        <tbody>          <tr>            <td>Body temperature</td>            <td>37.2 C</td>                                  </tr>          <tr>            <td>Heart rate</td>            <td>86 beats/minute</td>                                  </tr>          <tr>            <td>Respiratory rate</td>            <td>14 breaths/minute</td>                                  </tr>          <tr>            <td>Systolic blood pressure</td>            <td>130 mm[Hg]</td>                                  </tr>          <tr>            <td>Diastolic blood pressure</td>            <td>82 mm[Hg]</td>                                  </tr>          <tr>            <td>Body weight</td>            <td>103 kg</td>                                  </tr>        </tbody>      </table>    </div>"
            },
            "entry": [
              {
                "reference": "Observation/6f64547c-89a3-459d-a993-b89e995c1f14"
              },
              {
                "reference": "Observation/da3bbb11-e485-4396-a25c-611354789c65"
              },
              {
                "reference": "Observation/5dead0bd-80c7-42f7-9720-3aaf047eb89b"
              },
              {
                "reference": "Observation/126f25f0-d921-4d9a-85a2-5b847cfb89fb"
              },
              {
                "reference": "Observation/cf628f81-f66b-42a7-a33a-c5d38a604861"
              },
              {
                "reference": "Observation/dd309bef-3b36-4422-a202-39d040113a5d"
              },
              {
                "reference": "Observation/4c5e0a16-2e2c-47cc-8e1d-a87afee4d6f1"
              },
              {
                "reference": "Observation/eda3092b-5228-420b-b0ce-f5eb77e73942"
              },
              {
                "reference": "Observation/2d420435-f380-46e1-ad93-b9fef57f4b71"
              },
              {
                "reference": "Observation/7a422837-80f5-4fa6-b3ac-8a0e44b99356"
              },
              {
                "reference": "Observation/af9ae822-ae5d-4bec-88bf-4dd250350783"
              }
            ]
          },
          {
            "title": "Social History",
            "code": {
              "coding": [
                {
                  "system": "http://loinc.org",
                  "code": "29762-2",
                  "display": "Social history Narrative"
                }
              ]
            },
            "text": {
              "status": "generated",
              "div": "<div xmlns='http://www.w3.org/1999/xhtml' xml:lang='en-NZ'><table xmlns=\"http://www.w3.org/1999/xhtml\">        <thead>          <tr>            <th>Type</th>            <th>Item</th>            <th>Date(s)</th>            <th>Comment</th>                                  </tr>        </thead>        <tbody>          <tr>            <td>other</td>            <td>Worked as a forestry worker.</td>                        <td>Worked as a forestry worker. Was always physically active until 2020 fall.Has had subsequent falls. Now depends on a walker or scooter.</td>                                  </tr>          <tr>            <td>smoking</td>            <td>Ex-smoker</td>            <td>30/06/2005</td>            <td>30 - pack - year smoking history, quit smoking ~2005.</td>                                  </tr>        </tbody>      </table>    </div>"
            },
            "entry": [
              {
                "reference": "Observation/33624327-7e1b-4912-bca1-2d0c8d36b952"
              }
            ]
          },
          {
            "title": "Functional Status",
            "code": {
              "coding": [
                {
                  "system": "http://loinc.org",
                  "code": "47420-5",
                  "display": "Functional status assessment note"
                }
              ]
            },
            "text": {
              "status": "generated",
              "div": "<div xmlns='http://www.w3.org/1999/xhtml' xml:lang='en-NZ'><table xmlns=\"http://www.w3.org/1999/xhtml\">        <thead>          <tr>            <th>Functional Condition</th>            <th>Effective Dates</th>            <th>Condition Status</th>          </tr>        </thead>        <tbody>          <tr>            <td>Often confused, struggles to communicate in English</td>                        <td>Active</td>          </tr>          <tr>            <td>Depends on a walking frame or electric scooter to get around.</td>                        <td>Active</td>          </tr>          <tr>            <td>Doesn’t leave the house much.</td>                        <td>Active</td>          </tr>          <tr>            <td>Relies on caregiver Cindy for assistance with many activities of daily living.</td>                        <td>Active</td>          </tr>          <tr>            <td>Family has made the decision to transfer Iosefa to residential care soon, arrangements currently being finalised.</td>                        <td>Active</td>          </tr>        </tbody>      </table>    </div>"
            },
            "entry": [
              {
                "reference": "Condition/4464bdfe-dc87-4179-a10d-2884c975a6eb"
              },
              {
                "reference": "Condition/f0982a2a-8eb2-4b1a-9e73-6a82d2102003"
              },
              {
                "reference": "Condition/94c0216a-183b-45e9-9e98-f244ac0b4d4f"
              },
              {
                "reference": "Condition/14863bd8-1d6d-4c85-9bcc-1b33699908c4"
              },
              {
                "reference": "Condition/b008f275-c141-4cd5-b1bb-46c399eaf42d"
              }
            ]
          }
        ]
      }
    },
    {
      "fullUrl": "https://terminz.azurewebsites.net/fhir/Patient/ZKT9319",
      "resource": {
        "resourceType": "Patient",
        "id": "ZKT9319",
        "text": {
          "status": "generated",
          "div": "<div xmlns='http://www.w3.org/1999/xhtml' xml:lang='en-NZ'>Name: Iosefa Test-Fuimaono</div>"
        },
        "identifier": [
          {
            "system": "https://standards.digital.health.nz/ns/nhi-id",
            "value": "ZKT9319"
          }
        ],
        "name": [
          {
            "use": "usual",
            "family": "Test-Fuimaono",
            "given": [
              "Iosefa"
            ]
          }
        ],
        "gender": "male",
        "birthDate": "1950-07-04",
        "address": [
          {
            "use": "home",
            "type": "physical",
            "line": [
              "Flat 1",
              "1 Brooklyn Road",
              "Claudelands"
            ],
            "city": "Hamilton",
            "postalCode": "3214",
            "country": "NZ"
          }
        ],
        "maritalStatus": {
          "coding": [
            {
              "system": "http://terminology.hl7.org/CodeSystem/v3-MaritalStatus",
              "code": "W",
              "display": "Widowed"
            }
          ]
        },
        "contact": [
          {
            "relationship": [
              {
                "coding": [
                  {
                    "system": "http://terminology.hl7.org/CodeSystem/v2-0131",
                    "code": "N",
                    "display": "Next-of-Kin"
                  }
                ]
              }
            ],
            "name": {
              "use": "usual",
              "family": "Test-Fuimaono",
              "given": [
                "Cindy",
                "Test-Fuimaono"
              ]
            },
            "telecom": [
              {
                "system": "phone",
                "value": "021 111111",
                "use": "mobile"
              }
            ],
            "address": {
              "use": "home",
              "type": "physical",
              "line": [
                "Flat 1",
                "1 Brooklyn Road",
                "Claudelands"
              ],
              "city": "Hamilton",
              "postalCode": "3214",
              "country": "NZ"
            }
          },
          {
            "relationship": [
              {
                "coding": [
                  {
                    "system": "http://terminology.hl7.org/CodeSystem/v2-0131",
                    "code": "C",
                    "display": "Emergency Contact"
                  }
                ]
              }
            ],
            "name": {
              "use": "usual",
              "family": "Test-Fuimaono",
              "given": [
                "Cindy",
                "Test-Fuimaono"
              ]
            },
            "telecom": [
              {
                "system": "phone",
                "value": "021 111111",
                "use": "mobile"
              }
            ],
            "address": {
              "use": "home",
              "type": "physical",
              "line": [
                "Flat 1",
                "1 Brooklyn Road",
                "Claudelands"
              ],
              "city": "Hamilton",
              "postalCode": "3214",
              "country": "NZ"
            }
          }
        ],
        "communication": [
          {
            "language": {
              "text": "en-NZ"
            }
          }
        ]
      }
    },
    {
      "fullUrl": "https://terminz.azurewebsites.net/fhir/Organization/9c9542df-e45f-4131-9d44-8f5974e56d5b",
      "resource": {
        "resourceType": "Organization",
        "id": "9c9542df-e45f-4131-9d44-8f5974e56d5b",
        "text": {
          "status": "generated",
          "div": "<div xmlns='http://www.w3.org/1999/xhtml' xml:lang='en-NZ'>Name: Fairfield Medical Centre</div>"
        },
        "identifier": [
          {
            "system": "https://standards.digital.health.nz/ns/hpi-facility-id",
            "value": "F0U044-C"
          }
        ],
        "name": "Fairfield Medical Centre"
      }
    },
    {
      "fullUrl": "https://terminz.azurewebsites.net/fhir/PractitionerRole/c9288aea-5e73-4182-8231-aacbe50d3244",
      "resource": {
        "resourceType": "PractitionerRole",
        "id": "c9288aea-5e73-4182-8231-aacbe50d3244",
        "text": {
          "status": "generated",
          "div": "<div xmlns='http://www.w3.org/1999/xhtml' xml:lang='en-NZ'>Role: Doctor</div>"
        },
        "practitioner": {
          "reference": "Practitioner/4d4b76bf-55b5-40b8-a130-99ea24a84c23"
        },
        "code": [
          {
            "coding": [
              {
                "system": "http://snomed.info/sct",
                "code": "158965000",
                "display": "Doctor"
              }
            ]
          }
        ]
      }
    },
    {
      "fullUrl": "https://terminz.azurewebsites.net/fhir/Practitioner/4d4b76bf-55b5-40b8-a130-99ea24a84c23",
      "resource": {
        "resourceType": "Practitioner",
        "id": "4d4b76bf-55b5-40b8-a130-99ea24a84c23",
        "text": {
          "status": "generated",
          "div": "<div xmlns='http://www.w3.org/1999/xhtml' xml:lang='en-NZ'>Name: Dr James Test-Smith</div>"
        },
        "name": [
          {
            "use": "usual",
            "family": "Test-Smith",
            "given": [
              "Dr",
              "James",
              "Test-Smith"
            ]
          }
        ]
      }
    },
    {
      "fullUrl": "https://terminz.azurewebsites.net/fhir/Organization/644f2fb9-c264-4c32-898b-4048dddd6d1b",
      "resource": {
        "resourceType": "Organization",
        "id": "644f2fb9-c264-4c32-898b-4048dddd6d1b",
        "text": {
          "status": "generated",
          "div": "<div xmlns='http://www.w3.org/1999/xhtml' xml:lang='en-NZ'>Name: Fairfield Medical Centre</div>"
        },
        "identifier": [
          {
            "system": "https://standards.digital.health.nz/ns/hpi-facility-id",
            "value": "F0U044-C"
          }
        ],
        "name": "Fairfield Medical Centre"
      }
    },
    {
      "fullUrl": "https://terminz.azurewebsites.net/fhir/Location/F05076-A",
      "resource": {
        "resourceType": "Location",
        "id": "F05076-A",
        "text": {
          "status": "generated",
          "div": "<div xmlns=\"http://www.w3.org/1999/xhtml\">\r\n  <h2>Waikato Hospital</h2>\r\n  <table>\r\n    <tr>\r\n      <td>Identifier</td>\r\n      <td>F05076-A</td>\r\n    </tr>\r\n    <tr>\r\n      <td>Identifier System</td>\r\n      <td>https://standards.digital.health.nz/ns/hpi-facility-id</td>\r\n    </tr>\r\n    <tr>\r\n      <td>Status</td>\r\n      <td>Active</td>\r\n    </tr>\r\n    <tr>\r\n      <td>Mode</td>\r\n      <td>Instance</td>\r\n    </tr>\r\n    <tr>\r\n      <td>Type</td>\r\n      <td>Location</td>\r\n    </tr>\r\n    <tr>\r\n      <td>Address</td>\r\n      <td>183 Pembroke Street, Waikato Hospital, Hamilton 3204</td>\r\n    </tr>\r\n  </table>\r\n</div>"
        },
        "identifier": [
          {
            "system": "https://standards.digital.health.nz/ns/hpi-facility-id",
            "value": "F05076-A"
          }
        ],
        "status": "active",
        "name": "Waikato Hospital"
      }
    },
    {
      "fullUrl": "https://terminz.azurewebsites.net/fhir/AllergyIntolerance/1dfacb6d-4260-4fd4-84e9-a1c13aafa72c",
      "resource": {
        "resourceType": "AllergyIntolerance",
        "id": "1dfacb6d-4260-4fd4-84e9-a1c13aafa72c",
        "text": {
          "status": "generated",
          "div": "<div xmlns='http://www.w3.org/1999/xhtml' xml:lang='en-NZ'>Flucloxacillin-containing product (Penicillin adverse reaction)</div>"
        },
        "clinicalStatus": {
          "coding": [
            {
              "system": "http://terminology.hl7.org/CodeSystem/allergyintolerance-clinical",
              "code": "active"
            }
          ]
        },
        "verificationStatus": {
          "coding": [
            {
              "system": "http://terminology.hl7.org/CodeSystem/allergyintolerance-verification",
              "code": "confirmed"
            }
          ]
        },
        "type": "allergy",
        "category": [
          "medication"
        ],
        "code": {
          "coding": [
            {
              "system": "http://snomed.info/sct",
              "code": "96067005",
              "display": "Flucloxacillin-containing product"
            }
          ]
        },
        "patient": {
          "reference": "Patient/ZKT9319"
        },
        "asserter": {
          "reference": "Patient/ZKT9319"
        },
        "reaction": [
          {
            "manifestation": [
              {
                "coding": [
                  {
                    "system": "http://snomed.info/sct",
                    "code": "292954005",
                    "display": "Penicillin adverse reaction"
                  }
                ]
              }
            ]
          }
        ]
      }
    },
    {
      "fullUrl": "https://terminz.azurewebsites.net/fhir/AllergyIntolerance/e9b9aeaf-e5ac-4f72-b01d-df4c6107f746",
      "resource": {
        "resourceType": "AllergyIntolerance",
        "id": "e9b9aeaf-e5ac-4f72-b01d-df4c6107f746",
        "text": {
          "status": "generated",
          "div": "<div xmlns='http://www.w3.org/1999/xhtml' xml:lang='en-NZ'>Diazepam-containing product (Diazepam adverse reaction)</div>"
        },
        "clinicalStatus": {
          "coding": [
            {
              "system": "http://terminology.hl7.org/CodeSystem/allergyintolerance-clinical",
              "code": "active"
            }
          ]
        },
        "verificationStatus": {
          "coding": [
            {
              "system": "http://terminology.hl7.org/CodeSystem/allergyintolerance-verification",
              "code": "confirmed"
            }
          ]
        },
        "type": "allergy",
        "category": [
          "medication"
        ],
        "code": {
          "coding": [
            {
              "system": "http://snomed.info/sct",
              "code": "48546005",
              "display": "Diazepam-containing product"
            }
          ]
        },
        "patient": {
          "reference": "Patient/ZKT9319"
        },
        "asserter": {
          "reference": "Patient/ZKT9319"
        },
        "reaction": [
          {
            "manifestation": [
              {
                "coding": [
                  {
                    "system": "http://snomed.info/sct",
                    "code": "292360004",
                    "display": "Diazepam adverse reaction"
                  }
                ]
              }
            ]
          }
        ]
      }
    },
    {
      "fullUrl": "https://terminz.azurewebsites.net/fhir/Condition/2eafb947-e816-4d9f-978b-c91d0dbe4acc",
      "resource": {
        "resourceType": "Condition",
        "id": "2eafb947-e816-4d9f-978b-c91d0dbe4acc",
        "text": {
          "status": "generated",
          "div": "<div xmlns='http://www.w3.org/1999/xhtml' xml:lang='en-NZ'>Postconcussion</div>"
        },
        "clinicalStatus": {
          "coding": [
            {
              "system": "http://terminology.hl7.org/CodeSystem/condition-clinical",
              "code": "active"
            }
          ]
        },
        "verificationStatus": {
          "coding": [
            {
              "system": "http://terminology.hl7.org/CodeSystem/condition-ver-status",
              "code": "confirmed"
            }
          ]
        },
        "category": [
          {
            "coding": [
              {
                "system": "http://terminology.hl7.org/CodeSystem/condition-category",
                "code": "problem-list-item",
                "display": "Problem List Item"
              }
            ]
          }
        ],
        "code": {
          "coding": [
            {
              "system": "http://snomed.info/sct",
              "code": "40425004",
              "display": "Postconcussion syndrome"
            }
          ]
        },
        "subject": {
          "reference": "Patient/ZKT9319"
        }
      }
    },
    {
      "fullUrl": "https://terminz.azurewebsites.net/fhir/Condition/1923f2ca-043b-432c-9eed-404c81474e60",
      "resource": {
        "resourceType": "Condition",
        "id": "1923f2ca-043b-432c-9eed-404c81474e60",
        "text": {
          "status": "generated",
          "div": "<div xmlns='http://www.w3.org/1999/xhtml' xml:lang='en-NZ'>Diabetes type 2 on insulin</div>"
        },
        "clinicalStatus": {
          "coding": [
            {
              "system": "http://terminology.hl7.org/CodeSystem/condition-clinical",
              "code": "active"
            }
          ]
        },
        "verificationStatus": {
          "coding": [
            {
              "system": "http://terminology.hl7.org/CodeSystem/condition-ver-status",
              "code": "confirmed"
            }
          ]
        },
        "category": [
          {
            "coding": [
              {
                "system": "http://terminology.hl7.org/CodeSystem/condition-category",
                "code": "problem-list-item",
                "display": "Problem List Item"
              }
            ]
          }
        ],
        "code": {
          "coding": [
            {
              "system": "http://snomed.info/sct",
              "code": "237599002",
              "display": "Diabetes type 2 on insulin"
            }
          ]
        },
        "subject": {
          "reference": "Patient/ZKT9319"
        }
      }
    },
    {
      "fullUrl": "https://terminz.azurewebsites.net/fhir/Condition/4f40d5e3-9a5f-4e3f-b799-c3378da8e7dd",
      "resource": {
        "resourceType": "Condition",
        "id": "4f40d5e3-9a5f-4e3f-b799-c3378da8e7dd",
        "text": {
          "status": "generated",
          "div": "<div xmlns='http://www.w3.org/1999/xhtml' xml:lang='en-NZ'>Gout</div>"
        },
        "clinicalStatus": {
          "coding": [
            {
              "system": "http://terminology.hl7.org/CodeSystem/condition-clinical",
              "code": "active"
            }
          ]
        },
        "verificationStatus": {
          "coding": [
            {
              "system": "http://terminology.hl7.org/CodeSystem/condition-ver-status",
              "code": "confirmed"
            }
          ]
        },
        "category": [
          {
            "coding": [
              {
                "system": "http://terminology.hl7.org/CodeSystem/condition-category",
                "code": "problem-list-item",
                "display": "Problem List Item"
              }
            ]
          }
        ],
        "code": {
          "coding": [
            {
              "system": "http://snomed.info/sct",
              "code": "90560007",
              "display": "Gout"
            }
          ]
        },
        "subject": {
          "reference": "Patient/ZKT9319"
        }
      }
    },
    {
      "fullUrl": "https://terminz.azurewebsites.net/fhir/Condition/08992112-ac66-4c66-a803-89f80bb6d2aa",
      "resource": {
        "resourceType": "Condition",
        "id": "08992112-ac66-4c66-a803-89f80bb6d2aa",
        "text": {
          "status": "generated",
          "div": "<div xmlns='http://www.w3.org/1999/xhtml' xml:lang='en-NZ'>Benign essential hypertension</div>"
        },
        "clinicalStatus": {
          "coding": [
            {
              "system": "http://terminology.hl7.org/CodeSystem/condition-clinical",
              "code": "active"
            }
          ]
        },
        "verificationStatus": {
          "coding": [
            {
              "system": "http://terminology.hl7.org/CodeSystem/condition-ver-status",
              "code": "confirmed"
            }
          ]
        },
        "category": [
          {
            "coding": [
              {
                "system": "http://terminology.hl7.org/CodeSystem/condition-category",
                "code": "problem-list-item",
                "display": "Problem List Item"
              }
            ]
          }
        ],
        "code": {
          "coding": [
            {
              "system": "http://snomed.info/sct",
              "code": "1201005",
              "display": "Benign essential hypertension"
            }
          ]
        },
        "subject": {
          "reference": "Patient/ZKT9319"
        }
      }
    },
    {
      "fullUrl": "https://terminz.azurewebsites.net/fhir/Condition/9b54fc7a-8302-45cc-9ff6-e60c623c5bf9",
      "resource": {
        "resourceType": "Condition",
        "id": "9b54fc7a-8302-45cc-9ff6-e60c623c5bf9",
        "text": {
          "status": "generated",
          "div": "<div xmlns='http://www.w3.org/1999/xhtml' xml:lang='en-NZ'>Anxiety disorder due to a general medical condition</div>"
        },
        "clinicalStatus": {
          "coding": [
            {
              "system": "http://terminology.hl7.org/CodeSystem/condition-clinical",
              "code": "inactive"
            }
          ]
        },
        "verificationStatus": {
          "coding": [
            {
              "system": "http://terminology.hl7.org/CodeSystem/condition-ver-status",
              "code": "confirmed"
            }
          ]
        },
        "category": [
          {
            "coding": [
              {
                "system": "http://terminology.hl7.org/CodeSystem/condition-category",
                "code": "problem-list-item",
                "display": "Problem List Item"
              }
            ]
          }
        ],
        "code": {
          "coding": [
            {
              "system": "http://snomed.info/sct",
              "code": "52910006",
              "display": "Anxiety disorder due to a general medical condition"
            }
          ]
        },
        "subject": {
          "reference": "Patient/ZKT9319"
        }
      }
    },
    {
      "fullUrl": "https://terminz.azurewebsites.net/fhir/Condition/dd40111a-683f-4d72-bccc-3c6848bc0813",
      "resource": {
        "resourceType": "Condition",
        "id": "dd40111a-683f-4d72-bccc-3c6848bc0813",
        "text": {
          "status": "generated",
          "div": "<div xmlns='http://www.w3.org/1999/xhtml' xml:lang='en-NZ'>Fracture of neck of femur</div>"
        },
        "clinicalStatus": {
          "coding": [
            {
              "system": "http://terminology.hl7.org/CodeSystem/condition-clinical",
              "code": "inactive"
            }
          ]
        },
        "verificationStatus": {
          "coding": [
            {
              "system": "http://terminology.hl7.org/CodeSystem/condition-ver-status",
              "code": "confirmed"
            }
          ]
        },
        "category": [
          {
            "coding": [
              {
                "system": "http://terminology.hl7.org/CodeSystem/condition-category",
                "code": "problem-list-item",
                "display": "Problem List Item"
              }
            ]
          }
        ],
        "code": {
          "coding": [
            {
              "system": "http://snomed.info/sct",
              "code": "5913000",
              "display": "Fracture of neck of femur"
            }
          ]
        },
        "subject": {
          "reference": "Patient/ZKT9319"
        }
      }
    },
    {
      "fullUrl": "https://terminz.azurewebsites.net/fhir/Condition/4464bdfe-dc87-4179-a10d-2884c975a6eb",
      "resource": {
        "resourceType": "Condition",
        "id": "4464bdfe-dc87-4179-a10d-2884c975a6eb",
        "text": {
          "status": "generated",
          "div": "<div xmlns='http://www.w3.org/1999/xhtml' xml:lang='en-NZ'>Often confused, struggles to communicate in English</div>"
        },
        "clinicalStatus": {
          "coding": [
            {
              "system": "http://terminology.hl7.org/CodeSystem/condition-clinical",
              "code": "active"
            }
          ]
        },
        "code": {
          "text": "Often confused, struggles to communicate in English"
        },
        "subject": {
          "reference": "Patient/ZKT9319"
        }
      }
    },
    {
      "fullUrl": "https://terminz.azurewebsites.net/fhir/Condition/f0982a2a-8eb2-4b1a-9e73-6a82d2102003",
      "resource": {
        "resourceType": "Condition",
        "id": "f0982a2a-8eb2-4b1a-9e73-6a82d2102003",
        "text": {
          "status": "generated",
          "div": "<div xmlns='http://www.w3.org/1999/xhtml' xml:lang='en-NZ'>Depends on a walking frame or electric scooter to get around.</div>"
        },
        "clinicalStatus": {
          "coding": [
            {
              "system": "http://terminology.hl7.org/CodeSystem/condition-clinical",
              "code": "active"
            }
          ]
        },
        "code": {
          "text": "Depends on a walking frame or electric scooter to get around."
        },
        "subject": {
          "reference": "Patient/ZKT9319"
        }
      }
    },
    {
      "fullUrl": "https://terminz.azurewebsites.net/fhir/Condition/94c0216a-183b-45e9-9e98-f244ac0b4d4f",
      "resource": {
        "resourceType": "Condition",
        "id": "94c0216a-183b-45e9-9e98-f244ac0b4d4f",
        "text": {
          "status": "generated",
          "div": "<div xmlns='http://www.w3.org/1999/xhtml' xml:lang='en-NZ'>Doesn’t leave the house much.</div>"
        },
        "clinicalStatus": {
          "coding": [
            {
              "system": "http://terminology.hl7.org/CodeSystem/condition-clinical",
              "code": "active"
            }
          ]
        },
        "code": {
          "text": "Doesn’t leave the house much."
        },
        "subject": {
          "reference": "Patient/ZKT9319"
        }
      }
    },
    {
      "fullUrl": "https://terminz.azurewebsites.net/fhir/Condition/14863bd8-1d6d-4c85-9bcc-1b33699908c4",
      "resource": {
        "resourceType": "Condition",
        "id": "14863bd8-1d6d-4c85-9bcc-1b33699908c4",
        "text": {
          "status": "generated",
          "div": "<div xmlns='http://www.w3.org/1999/xhtml' xml:lang='en-NZ'>Relies on caregiver Cindy for assistance with many activities of daily living.</div>"
        },
        "clinicalStatus": {
          "coding": [
            {
              "system": "http://terminology.hl7.org/CodeSystem/condition-clinical",
              "code": "active"
            }
          ]
        },
        "code": {
          "text": "Relies on caregiver Cindy for assistance with many activities of daily living."
        },
        "subject": {
          "reference": "Patient/ZKT9319"
        }
      }
    },
    {
      "fullUrl": "https://terminz.azurewebsites.net/fhir/Condition/b008f275-c141-4cd5-b1bb-46c399eaf42d",
      "resource": {
        "resourceType": "Condition",
        "id": "b008f275-c141-4cd5-b1bb-46c399eaf42d",
        "text": {
          "status": "generated",
          "div": "<div xmlns='http://www.w3.org/1999/xhtml' xml:lang='en-NZ'>Family has made the decision to transfer Iosefa to residential care soon, arrangements currently being finalised.</div>"
        },
        "clinicalStatus": {
          "coding": [
            {
              "system": "http://terminology.hl7.org/CodeSystem/condition-clinical",
              "code": "active"
            }
          ]
        },
        "code": {
          "text": "Family has made the decision to transfer Iosefa to residential care soon, arrangements currently being finalised."
        },
        "subject": {
          "reference": "Patient/ZKT9319"
        }
      }
    },
    {
      "fullUrl": "https://terminz.azurewebsites.net/fhir/MedicationStatement/8ecbe74a-a3fa-4edf-8133-44ca8903a645",
      "resource": {
        "resourceType": "MedicationStatement",
        "id": "8ecbe74a-a3fa-4edf-8133-44ca8903a645",
        "text": {
          "status": "generated",
          "div": "<div xmlns='http://www.w3.org/1999/xhtml' xml:lang='en-NZ'>10368421000116106 (insulin glargine 100 international units/mL injection, 10 mL vial)</div>"
        },
        "status": "active",
        "medicationCodeableConcept": {
          "coding": [
            {
              "system": "http://snomed.info/sct",
              "code": "126212009",
              "display": "Product containing insulin glargine (medicinal product)"
            }
          ],
          "text": "insulin glargine 100 international units/mL injection, 10 mL vial"
        },
        "subject": {
          "reference": "Patient/ZKT9319"
        },
        "effectiveDateTime": "2023-02-21",
        "informationSource": {
          "reference": "Organization/644f2fb9-c264-4c32-898b-4048dddd6d1b"
        },
        "dosage": [
          {
            "text": "Inject 20 units per day into your upper arms, abdomen or thights.You should vary the site where you inject each dose of Lantus. This helps reduce your risk of certain side effects, such as pits or lumps in your skin.",
            "timing": {
              "repeat": {
                "frequency": 1,
                "period": 1,
                "periodUnit": "d"
              }
            },
            "route": {
              "coding": [
                {
                  "system": "http://snomed.info/sct",
                  "code": "34206005",
                  "display": "subcutaneous route"
                }
              ]
            },
            "doseAndRate": [
              {
                "type": {
                  "coding": [
                    {
                      "system": "http://terminology.hl7.org/CodeSystem/dose-rate-type",
                      "code": "ordered",
                      "display": "Ordered"
                    }
                  ]
                },
                "doseQuantity": {
                  "value": 1,
                  "unit": "unit",
                  "system": "http://snomed.info/sct",
                  "code": "767525000"
                }
              }
            ]
          }
        ]
      }
    },
    {
      "fullUrl": "https://terminz.azurewebsites.net/fhir/MedicationStatement/06c4eda2-df30-4231-af09-0135e5f84548",
      "resource": {
        "resourceType": "MedicationStatement",
        "id": "06c4eda2-df30-4231-af09-0135e5f84548",
        "text": {
          "status": "generated",
          "div": "<div xmlns='http://www.w3.org/1999/xhtml' xml:lang='en-NZ'>47230201000116108 (dulaglutide 1.5 mg/0.5 mL injection, prefilled injection device)</div>"
        },
        "status": "active",
        "medicationCodeableConcept": {
          "coding": [
            {
              "system": "http://snomed.info/sct",
              "code": "714081009",
              "display": "Product containing dulaglutide (medicinal product)"
            }
          ],
          "text": "dulaglutide 1.5 mg/0.5 mL injection, prefilled injection device"
        },
        "subject": {
          "reference": "Patient/ZKT9319"
        },
        "effectiveDateTime": "2023-02-21",
        "informationSource": {
          "reference": "Organization/644f2fb9-c264-4c32-898b-4048dddd6d1b"
        },
        "dosage": [
          {
            "text": "Inject once a week, on the same day each week, into the skin of your stomach, thigh or upper arm. You can use the same area of your body each time, but choose a different place within that area. You can inject it any time of the day, with or without meals.",
            "route": {
              "coding": [
                {
                  "system": "http://snomed.info/sct",
                  "code": "34206005",
                  "display": "subcutaneous route"
                }
              ]
            },
            "doseAndRate": [
              {
                "type": {
                  "coding": [
                    {
                      "system": "http://terminology.hl7.org/CodeSystem/dose-rate-type",
                      "code": "ordered",
                      "display": "Ordered"
                    }
                  ]
                }
              }
            ]
          }
        ]
      }
    },
    {
      "fullUrl": "https://terminz.azurewebsites.net/fhir/MedicationStatement/4b5f40b9-f59c-4090-81b1-4609ac6b7af8",
      "resource": {
        "resourceType": "MedicationStatement",
        "id": "4b5f40b9-f59c-4090-81b1-4609ac6b7af8",
        "text": {
          "status": "generated",
          "div": "<div xmlns='http://www.w3.org/1999/xhtml' xml:lang='en-NZ'>44221701000116102 (metformin hydrochloride 1000 mg tablet)</div>"
        },
        "status": "active",
        "medicationCodeableConcept": {
          "coding": [
            {
              "system": "http://snomed.info/sct",
              "code": "109081006",
              "display": "Product containing metformin (medicinal product)"
            }
          ],
          "text": "metformin hydrochloride 1000 mg tablet"
        },
        "subject": {
          "reference": "Patient/ZKT9319"
        },
        "effectiveDateTime": "2023-02-21",
        "informationSource": {
          "reference": "Organization/644f2fb9-c264-4c32-898b-4048dddd6d1b"
        },
        "dosage": [
          {
            "text": "Take ONE tablet, two times a day, with meals.",
            "timing": {
              "repeat": {
                "frequency": 2,
                "period": 1,
                "periodUnit": "d"
              }
            },
            "route": {
              "coding": [
                {
                  "system": "http://snomed.info/sct",
                  "code": "26643006",
                  "display": "Oral route"
                }
              ]
            },
            "doseAndRate": [
              {
                "type": {
                  "coding": [
                    {
                      "system": "http://terminology.hl7.org/CodeSystem/dose-rate-type",
                      "code": "ordered",
                      "display": "Ordered"
                    }
                  ]
                },
                "doseQuantity": {
                  "value": 1,
                  "unit": "Tablet - unit of product usage",
                  "system": "http://snomed.info/sct",
                  "code": "428673006"
                }
              }
            ]
          }
        ]
      }
    },
    {
      "fullUrl": "https://terminz.azurewebsites.net/fhir/MedicationStatement/e19dc087-0055-4feb-a847-72e77cf55a0a",
      "resource": {
        "resourceType": "MedicationStatement",
        "id": "e19dc087-0055-4feb-a847-72e77cf55a0a",
        "text": {
          "status": "generated",
          "div": "<div xmlns='http://www.w3.org/1999/xhtml' xml:lang='en-NZ'>10109621000116108 (amlodipine 5 mg tablet)</div>"
        },
        "status": "active",
        "medicationCodeableConcept": {
          "coding": [
            {
              "system": "http://snomed.info/sct",
              "code": "108537001",
              "display": "Product containing amlodipine (medicinal product)"
            }
          ],
          "text": "amlodipine 5 mg tablet"
        },
        "subject": {
          "reference": "Patient/ZKT9319"
        },
        "effectiveDateTime": "2023-02-21",
        "informationSource": {
          "reference": "Organization/644f2fb9-c264-4c32-898b-4048dddd6d1b"
        },
        "dosage": [
          {
            "text": "Take ONE tablet at any time of day, but try to make sure it's around the same time every day.",
            "timing": {
              "repeat": {
                "frequency": 1,
                "period": 1,
                "periodUnit": "d"
              }
            },
            "route": {
              "coding": [
                {
                  "system": "http://snomed.info/sct",
                  "code": "26643006",
                  "display": "Oral route"
                }
              ]
            },
            "doseAndRate": [
              {
                "type": {
                  "coding": [
                    {
                      "system": "http://terminology.hl7.org/CodeSystem/dose-rate-type",
                      "code": "ordered",
                      "display": "Ordered"
                    }
                  ]
                },
                "doseQuantity": {
                  "value": 1,
                  "unit": "Tablet - unit of product usage",
                  "system": "http://snomed.info/sct",
                  "code": "428673006"
                }
              }
            ]
          }
        ]
      }
    },
    {
      "fullUrl": "https://terminz.azurewebsites.net/fhir/MedicationStatement/f7a26186-dd57-420f-95be-c0deeee49367",
      "resource": {
        "resourceType": "MedicationStatement",
        "id": "f7a26186-dd57-420f-95be-c0deeee49367",
        "text": {
          "status": "generated",
          "div": "<div xmlns='http://www.w3.org/1999/xhtml' xml:lang='en-NZ'>10195211000116102 (losartan potassium 50 mg tablet)</div>"
        },
        "status": "active",
        "medicationCodeableConcept": {
          "coding": [
            {
              "system": "http://snomed.info/sct",
              "code": "96309000",
              "display": "Product containing losartan (medicinal product)"
            }
          ],
          "text": "losartan potassium 50 mg tablet"
        },
        "subject": {
          "reference": "Patient/ZKT9319"
        },
        "effectiveDateTime": "2023-02-21",
        "informationSource": {
          "reference": "Organization/644f2fb9-c264-4c32-898b-4048dddd6d1b"
        },
        "dosage": [
          {
            "text": "Take ONE tablet daily",
            "timing": {
              "repeat": {
                "frequency": 1,
                "period": 1,
                "periodUnit": "d"
              }
            },
            "route": {
              "coding": [
                {
                  "system": "http://snomed.info/sct",
                  "code": "26643006",
                  "display": "Oral route"
                }
              ]
            },
            "doseAndRate": [
              {
                "type": {
                  "coding": [
                    {
                      "system": "http://terminology.hl7.org/CodeSystem/dose-rate-type",
                      "code": "ordered",
                      "display": "Ordered"
                    }
                  ]
                },
                "doseQuantity": {
                  "value": 1,
                  "unit": "Tablet - unit of product usage",
                  "system": "http://snomed.info/sct",
                  "code": "428673006"
                }
              }
            ]
          }
        ]
      }
    },
    {
      "fullUrl": "https://terminz.azurewebsites.net/fhir/MedicationStatement/b6b49f33-a0e4-4b94-92f3-caa3267ad4f7",
      "resource": {
        "resourceType": "MedicationStatement",
        "id": "b6b49f33-a0e4-4b94-92f3-caa3267ad4f7",
        "text": {
          "status": "generated",
          "div": "<div xmlns='http://www.w3.org/1999/xhtml' xml:lang='en-NZ'>10077081000116106 (aspirin 75 mg tablet: enteric-coated)</div>"
        },
        "status": "active",
        "medicationCodeableConcept": {
          "coding": [
            {
              "system": "http://snomed.info/sct",
              "code": "7947003",
              "display": "Product containing aspirin (medicinal product)"
            }
          ],
          "text": "aspirin 75 mg tablet: enteric-coated"
        },
        "subject": {
          "reference": "Patient/ZKT9319"
        },
        "effectiveDateTime": "2023-02-21",
        "informationSource": {
          "reference": "Organization/644f2fb9-c264-4c32-898b-4048dddd6d1b"
        },
        "dosage": [
          {
            "text": "Take ONE tablet daily",
            "timing": {
              "repeat": {
                "frequency": 1,
                "period": 1,
                "periodUnit": "d"
              }
            },
            "route": {
              "coding": [
                {
                  "system": "http://snomed.info/sct",
                  "code": "26643006",
                  "display": "Oral route"
                }
              ]
            },
            "doseAndRate": [
              {
                "type": {
                  "coding": [
                    {
                      "system": "http://terminology.hl7.org/CodeSystem/dose-rate-type",
                      "code": "ordered",
                      "display": "Ordered"
                    }
                  ]
                },
                "doseQuantity": {
                  "value": 1,
                  "unit": "Tablet - unit of product usage",
                  "system": "http://snomed.info/sct",
                  "code": "428673006"
                }
              }
            ]
          }
        ]
      }
    },
    {
      "fullUrl": "https://terminz.azurewebsites.net/fhir/MedicationStatement/ce2395b9-d7ef-4df0-b38f-fc9be0e44f94",
      "resource": {
        "resourceType": "MedicationStatement",
        "id": "ce2395b9-d7ef-4df0-b38f-fc9be0e44f94",
        "text": {
          "status": "generated",
          "div": "<div xmlns='http://www.w3.org/1999/xhtml' xml:lang='en-NZ'>10030521000116104 (allopurinol 300 mg tablet)</div>"
        },
        "status": "active",
        "medicationCodeableConcept": {
          "coding": [
            {
              "system": "http://snomed.info/sct",
              "code": "25246002",
              "display": "Product containing allopurinol (medicinal product)"
            }
          ],
          "text": "allopurinol 300 mg tablet"
        },
        "subject": {
          "reference": "Patient/ZKT9319"
        },
        "effectiveDateTime": "2023-02-21",
        "informationSource": {
          "reference": "Organization/644f2fb9-c264-4c32-898b-4048dddd6d1b"
        },
        "dosage": [
          {
            "text": "Take ONE tablet daily, after meals",
            "timing": {
              "repeat": {
                "frequency": 1,
                "period": 1,
                "periodUnit": "d"
              }
            },
            "route": {
              "coding": [
                {
                  "system": "http://snomed.info/sct",
                  "code": "26643006",
                  "display": "Oral route"
                }
              ]
            },
            "doseAndRate": [
              {
                "type": {
                  "coding": [
                    {
                      "system": "http://terminology.hl7.org/CodeSystem/dose-rate-type",
                      "code": "ordered",
                      "display": "Ordered"
                    }
                  ]
                },
                "doseQuantity": {
                  "value": 1,
                  "unit": "Tablet - unit of product usage",
                  "system": "http://snomed.info/sct",
                  "code": "428673006"
                }
              }
            ]
          }
        ]
      }
    },
    {
      "fullUrl": "https://terminz.azurewebsites.net/fhir/Immunization/998e59d9-a7f4-4503-b08e-85ce9b206b0a",
      "resource": {
        "resourceType": "Immunization",
        "id": "998e59d9-a7f4-4503-b08e-85ce9b206b0a",
        "text": {
          "status": "generated",
          "div": "<div xmlns='http://www.w3.org/1999/xhtml' xml:lang='en-NZ'>208 (Pfizer/BioNtech)</div>"
        },
        "status": "completed",
        "vaccineCode": {
          "coding": [
            {
              "system": "http://hl7.org/fhir/sid/cvx",
              "code": "208",
              "display": "SARS-COV-2 (COVID-19) vaccine, mRNA, spike protein, LNP, preservative free, 30 mcg/0.3mL dose"
            }
          ]
        },
        "patient": {
          "reference": "Patient/ZKT9319"
        },
        "occurrenceDateTime": "2022-02-01",
        "site": {
          "coding": [
            {
              "system": "http://snomed.info/sct",
              "code": "16217701000119102",
              "display": "Structure of left deltoid muscle"
            }
          ]
        },
        "route": {
          "coding": [
            {
              "system": "http://terminology.hl7.org/CodeSystem/v3-RouteOfAdministration",
              "code": "IM",
              "display": "Injection, intramuscular"
            }
          ]
        },
        "performer": [
          {
            "actor": {
              "reference": "Organization/644f2fb9-c264-4c32-898b-4048dddd6d1b"
            }
          }
        ],
        "protocolApplied": [
          {
            "series": "12 (At risk, no previous history)",
            "doseNumberPositiveInt": 2
          }
        ]
      }
    },
    {
      "fullUrl": "https://terminz.azurewebsites.net/fhir/Immunization/fc6b3454-527b-4deb-a266-7f52c63d0d3c",
      "resource": {
        "resourceType": "Immunization",
        "id": "fc6b3454-527b-4deb-a266-7f52c63d0d3c",
        "text": {
          "status": "generated",
          "div": "<div xmlns='http://www.w3.org/1999/xhtml' xml:lang='en-NZ'>208 (Pfizer/BioNtech)</div>"
        },
        "status": "completed",
        "vaccineCode": {
          "coding": [
            {
              "system": "http://hl7.org/fhir/sid/cvx",
              "code": "208",
              "display": "SARS-COV-2 (COVID-19) vaccine, mRNA, spike protein, LNP, preservative free, 30 mcg/0.3mL dose"
            }
          ]
        },
        "patient": {
          "reference": "Patient/ZKT9319"
        },
        "occurrenceDateTime": "2021-08-05",
        "site": {
          "coding": [
            {
              "system": "http://snomed.info/sct",
              "code": "16217701000119102",
              "display": "Structure of left deltoid muscle"
            }
          ]
        },
        "route": {
          "coding": [
            {
              "system": "http://terminology.hl7.org/CodeSystem/v3-RouteOfAdministration",
              "code": "IM",
              "display": "Injection, intramuscular"
            }
          ]
        },
        "performer": [
          {
            "actor": {
              "reference": "Organization/644f2fb9-c264-4c32-898b-4048dddd6d1b"
            }
          }
        ],
        "protocolApplied": [
          {
            "series": "12 (At risk, no previous history)",
            "doseNumberPositiveInt": 1
          }
        ]
      }
    },
    {
      "fullUrl": "https://terminz.azurewebsites.net/fhir/Immunization/33c971d3-0992-4e93-b904-6325ed4602e3",
      "resource": {
        "resourceType": "Immunization",
        "id": "33c971d3-0992-4e93-b904-6325ed4602e3",
        "text": {
          "status": "generated",
          "div": "<div xmlns='http://www.w3.org/1999/xhtml' xml:lang='en-NZ'>99006 (Influenza)</div>"
        },
        "status": "completed",
        "vaccineCode": {
          "coding": [
            {
              "system": "http://hl7.org/fhir/sid/cvx",
              "code": "141",
              "display": "Influenza, seasonal, injectable"
            }
          ]
        },
        "patient": {
          "reference": "Patient/ZKT9319"
        },
        "occurrenceDateTime": "2019-05-20",
        "site": {
          "coding": [
            {
              "system": "http://snomed.info/sct",
              "code": "16217701000119102",
              "display": "Structure of left deltoid muscle"
            }
          ]
        },
        "route": {
          "coding": [
            {
              "system": "http://terminology.hl7.org/CodeSystem/v3-RouteOfAdministration",
              "code": "IM",
              "display": "Injection, intramuscular"
            }
          ]
        },
        "performer": [
          {
            "actor": {
              "reference": "Organization/644f2fb9-c264-4c32-898b-4048dddd6d1b"
            }
          }
        ],
        "protocolApplied": [
          {
            "series": "1 (Over 65 years (Influenza))",
            "doseNumberPositiveInt": 1
          }
        ]
      }
    },
    {
      "fullUrl": "https://terminz.azurewebsites.net/fhir/Immunization/12c253d4-20e8-4dd4-935c-fd1ec8a49279",
      "resource": {
        "resourceType": "Immunization",
        "id": "12c253d4-20e8-4dd4-935c-fd1ec8a49279",
        "text": {
          "status": "generated",
          "div": "<div xmlns='http://www.w3.org/1999/xhtml' xml:lang='en-NZ'>20 (DTaP)</div>"
        },
        "status": "completed",
        "vaccineCode": {
          "coding": [
            {
              "system": "http://hl7.org/fhir/sid/cvx",
              "code": "20",
              "display": "diphtheria, tetanus toxoids and acellular pertussis vaccine"
            }
          ]
        },
        "patient": {
          "reference": "Patient/ZKT9319"
        },
        "occurrenceDateTime": "2019-04-24",
        "site": {
          "coding": [
            {
              "system": "http://snomed.info/sct",
              "code": "16217701000119102",
              "display": "Structure of left deltoid muscle"
            }
          ]
        },
        "route": {
          "coding": [
            {
              "system": "http://terminology.hl7.org/CodeSystem/v3-RouteOfAdministration",
              "code": "IM",
              "display": "Injection, intramuscular"
            }
          ]
        },
        "performer": [
          {
            "actor": {
              "reference": "Organization/644f2fb9-c264-4c32-898b-4048dddd6d1b"
            }
          }
        ],
        "protocolApplied": [
          {
            "series": "6 (Booster)",
            "doseNumberPositiveInt": 1
          }
        ]
      }
    },
    {
      "fullUrl": "https://terminz.azurewebsites.net/fhir/Immunization/70308bba-2bc4-4505-ba9b-520f9d3dc30b",
      "resource": {
        "resourceType": "Immunization",
        "id": "70308bba-2bc4-4505-ba9b-520f9d3dc30b",
        "text": {
          "status": "generated",
          "div": "<div xmlns='http://www.w3.org/1999/xhtml' xml:lang='en-NZ'> [Tetanus booster (given as DT)]</div>"
        },
        "status": "completed",
        "vaccineCode": {
          "coding": [
            {
              "system": "http://hl7.org/fhir/sid/cvx",
              "code": "138",
              "display": "tetanus and diphtheria toxoids, not adsorbed, for adult use"
            }
          ]
        },
        "patient": {
          "reference": "Patient/ZKT9319"
        },
        "occurrenceDateTime": "2018-04-05",
        "site": {
          "coding": [
            {
              "system": "http://snomed.info/sct",
              "code": "16217701000119102",
              "display": "Structure of left deltoid muscle"
            }
          ]
        },
        "route": {
          "coding": [
            {
              "system": "http://terminology.hl7.org/CodeSystem/v3-RouteOfAdministration",
              "code": "IM",
              "display": "Injection, intramuscular"
            }
          ]
        },
        "performer": [
          {
            "actor": {
              "reference": "Organization/644f2fb9-c264-4c32-898b-4048dddd6d1b"
            }
          }
        ],
        "protocolApplied": [
          {
            "series": "6 (Booster)",
            "doseNumberPositiveInt": 1
          }
        ]
      }
    },
    {
      "fullUrl": "https://terminz.azurewebsites.net/fhir/Immunization/acd3a963-0985-4679-a126-8eb9ed981d36",
      "resource": {
        "resourceType": "Immunization",
        "id": "acd3a963-0985-4679-a126-8eb9ed981d36",
        "text": {
          "status": "generated",
          "div": "<div xmlns='http://www.w3.org/1999/xhtml' xml:lang='en-NZ'>133 (PCV13)</div>"
        },
        "status": "completed",
        "vaccineCode": {
          "coding": [
            {
              "system": "http://hl7.org/fhir/sid/cvx",
              "code": "133",
              "display": "pneumococcal conjugate vaccine, 13 valent"
            }
          ]
        },
        "patient": {
          "reference": "Patient/ZKT9319"
        },
        "occurrenceDateTime": "2015-09-25",
        "site": {
          "coding": [
            {
              "system": "http://snomed.info/sct",
              "code": "16217701000119102",
              "display": "Structure of left deltoid muscle"
            }
          ]
        },
        "route": {
          "coding": [
            {
              "system": "http://terminology.hl7.org/CodeSystem/v3-RouteOfAdministration",
              "code": "IM",
              "display": "Injection, intramuscular"
            }
          ]
        },
        "performer": [
          {
            "actor": {
              "reference": "Organization/644f2fb9-c264-4c32-898b-4048dddd6d1b"
            }
          }
        ],
        "protocolApplied": [
          {
            "series": "21 (PCV catch up)",
            "doseNumberPositiveInt": 1
          }
        ]
      }
    },
    {
      "fullUrl": "https://terminz.azurewebsites.net/fhir/Immunization/bae44614-43cc-4df4-94b3-c26d34b0ea37",
      "resource": {
        "resourceType": "Immunization",
        "id": "bae44614-43cc-4df4-94b3-c26d34b0ea37",
        "text": {
          "status": "generated",
          "div": "<div xmlns='http://www.w3.org/1999/xhtml' xml:lang='en-NZ'>99006 (Influenza)</div>"
        },
        "status": "completed",
        "vaccineCode": {
          "coding": [
            {
              "system": "http://hl7.org/fhir/sid/cvx",
              "code": "141",
              "display": "Influenza, seasonal, injectable"
            }
          ]
        },
        "patient": {
          "reference": "Patient/ZKT9319"
        },
        "occurrenceDateTime": "2015-05-01",
        "site": {
          "coding": [
            {
              "system": "http://snomed.info/sct",
              "code": "16217701000119102",
              "display": "Structure of left deltoid muscle"
            }
          ]
        },
        "route": {
          "coding": [
            {
              "system": "http://terminology.hl7.org/CodeSystem/v3-RouteOfAdministration",
              "code": "IM",
              "display": "Injection, intramuscular"
            }
          ]
        },
        "performer": [
          {
            "actor": {
              "reference": "Organization/644f2fb9-c264-4c32-898b-4048dddd6d1b"
            }
          }
        ],
        "protocolApplied": [
          {
            "series": "1 (Over 65 years (Influenza))",
            "doseNumberPositiveInt": 1
          }
        ]
      }
    },
    {
      "fullUrl": "https://terminz.azurewebsites.net/fhir/Procedure/8414198c-a43b-4ef1-b06f-3b39fb4b39cc",
      "resource": {
        "resourceType": "Procedure",
        "id": "8414198c-a43b-4ef1-b06f-3b39fb4b39cc",
        "text": {
          "status": "generated",
          "div": "<div xmlns='http://www.w3.org/1999/xhtml' xml:lang='en-NZ'>Operative procedure on hip</div>"
        },
        "status": "unknown",
        "code": {
          "coding": [
            {
              "system": "http://snomed.info/sct",
              "code": "265132005",
              "display": "Primary open reduction and internal fixation of proximal femoral fracture with screw/nail and plate device"
            }
          ],
          "text": "Operative procedure on hip"
        },
        "subject": {
          "reference": "Patient/ZKT9319"
        },
        "performedDateTime": "2020-09-01",
        "location": {
          "reference": "Location/F05076-A"
        }
      }
    },
    {
      "fullUrl": "https://terminz.azurewebsites.net/fhir/Procedure/1096ab80-e982-41b3-85c2-8e1d2466d147",
      "resource": {
        "resourceType": "Procedure",
        "id": "1096ab80-e982-41b3-85c2-8e1d2466d147",
        "text": {
          "status": "generated",
          "div": "<div xmlns='http://www.w3.org/1999/xhtml' xml:lang='en-NZ'>Hand closure</div>"
        },
        "status": "unknown",
        "code": {
          "coding": [
            {
              "system": "http://snomed.info/sct",
              "code": "287903004",
              "display": "Suturing of hand"
            }
          ],
          "text": "Hand closure"
        },
        "subject": {
          "reference": "Patient/ZKT9319"
        },
        "performedDateTime": "2018-03-31"
      }
    },
    {
      "fullUrl": "https://terminz.azurewebsites.net/fhir/DiagnosticReport/9e0d995f-a78d-45f4-b3aa-23037972a3e6",
      "resource": {
        "resourceType": "DiagnosticReport",
        "id": "9e0d995f-a78d-45f4-b3aa-23037972a3e6",
        "text": {
          "status": "generated",
          "div": "<div xmlns='http://www.w3.org/1999/xhtml' xml:lang='en-NZ'> [Lipids]</div>"
        },
        "status": "final",
        "category": [
          {
            "coding": [
              {
                "system": "http://terminology.hl7.org/CodeSystem/v2-0074",
                "code": "LAB",
                "display": "Laboratory"
              }
            ]
          }
        ],
        "code": {
          "text": "[Lipids]"
        },
        "subject": {
          "reference": "Patient/ZKT9319"
        },
        "effectiveDateTime": "2023-03-05T00:00:00+00:00",
        "result": [
          {
            "reference": "Observation/2f3ad263-1b4e-443b-95ca-66d2abb6e927"
          },
          {
            "reference": "Observation/fe53810f-a341-4093-a959-4048ad62f85b"
          },
          {
            "reference": "Observation/6adb76b4-73f3-4552-87a6-09ac3dc1f558"
          }
        ]
      }
    },
    {
      "fullUrl": "https://terminz.azurewebsites.net/fhir/DiagnosticReport/2da4116e-7158-4d59-b6c4-873b37f7d65f",
      "resource": {
        "resourceType": "DiagnosticReport",
        "id": "2da4116e-7158-4d59-b6c4-873b37f7d65f",
        "text": {
          "status": "generated",
          "div": "<div xmlns='http://www.w3.org/1999/xhtml' xml:lang='en-NZ'> [HbA1C]</div>"
        },
        "status": "final",
        "category": [
          {
            "coding": [
              {
                "system": "http://terminology.hl7.org/CodeSystem/v2-0074",
                "code": "LAB",
                "display": "Laboratory"
              }
            ]
          }
        ],
        "code": {
          "text": "[HbA1C]"
        },
        "subject": {
          "reference": "Patient/ZKT9319"
        },
        "effectiveDateTime": "2023-03-05T00:00:00+00:00",
        "result": [
          {
            "reference": "Observation/63ad8984-003c-4e44-bc56-31dd6abc0897"
          }
        ]
      }
    },
    {
      "fullUrl": "https://terminz.azurewebsites.net/fhir/Observation/2f3ad263-1b4e-443b-95ca-66d2abb6e927",
      "resource": {
        "resourceType": "Observation",
        "id": "2f3ad263-1b4e-443b-95ca-66d2abb6e927",
        "text": {
          "status": "generated",
          "div": "<div xmlns='http://www.w3.org/1999/xhtml' xml:lang='en-NZ'> [Total cholesterol:HDL ratio]</div>"
        },
        "status": "final",
        "category": [
          {
            "coding": [
              {
                "system": "http://terminology.hl7.org/CodeSystem/observation-category",
                "code": "laboratory"
              }
            ]
          }
        ],
        "code": {
          "text": "[Total cholesterol:HDL ratio]"
        },
        "subject": {
          "reference": "Patient/ZKT9319"
        },
        "effectiveDateTime": "2023-03-05T00:00:00+00:00",
        "performer": [
          {
            "reference": "PractitionerRole/8363e64e-f639-4f55-bd3c-6302bf87a6d3"
          }
        ],
        "valueQuantity": {
          "value": 5.1,
          "unit": "mmol/L",
          "system": "http://unitsofmeasure.org",
          "code": "mmol/L"
        },
        "interpretation": [
          {
            "coding": [
              {
                "system": "http://terminology.hl7.org/CodeSystem/v3-ObservationInterpretation",
                "code": "H",
                "display": "High"
              }
            ]
          }
        ],
        "referenceRange": [
          {
            "text": "<4 mmol/L (high risk)"
          }
        ]
      }
    },
    {
      "fullUrl": "https://terminz.azurewebsites.net/fhir/Observation/fe53810f-a341-4093-a959-4048ad62f85b",
      "resource": {
        "resourceType": "Observation",
        "id": "fe53810f-a341-4093-a959-4048ad62f85b",
        "text": {
          "status": "generated",
          "div": "<div xmlns='http://www.w3.org/1999/xhtml' xml:lang='en-NZ'> [HDL Cholesterol]</div>"
        },
        "status": "final",
        "category": [
          {
            "coding": [
              {
                "system": "http://terminology.hl7.org/CodeSystem/observation-category",
                "code": "laboratory"
              }
            ]
          }
        ],
        "code": {
          "text": "[HDL Cholesterol]"
        },
        "subject": {
          "reference": "Patient/ZKT9319"
        },
        "effectiveDateTime": "2023-03-05T00:00:00+00:00",
        "performer": [
          {
            "reference": "PractitionerRole/8363e64e-f639-4f55-bd3c-6302bf87a6d3"
          }
        ],
        "valueQuantity": {
          "value": 1.5,
          "unit": "mmol/L",
          "system": "http://unitsofmeasure.org",
          "code": "mmol/L"
        },
        "interpretation": [
          {
            "coding": [
              {
                "system": "http://terminology.hl7.org/CodeSystem/v3-ObservationInterpretation",
                "code": "N",
                "display": "Normal"
              }
            ]
          }
        ],
        "referenceRange": [
          {
            "text": ">1 mmol/L"
          }
        ]
      }
    },
    {
      "fullUrl": "https://terminz.azurewebsites.net/fhir/Observation/6adb76b4-73f3-4552-87a6-09ac3dc1f558",
      "resource": {
        "resourceType": "Observation",
        "id": "6adb76b4-73f3-4552-87a6-09ac3dc1f558",
        "text": {
          "status": "generated",
          "div": "<div xmlns='http://www.w3.org/1999/xhtml' xml:lang='en-NZ'> [LDL Cholesterol]</div>"
        },
        "status": "final",
        "category": [
          {
            "coding": [
              {
                "system": "http://terminology.hl7.org/CodeSystem/observation-category",
                "code": "laboratory"
              }
            ]
          }
        ],
        "code": {
          "text": "[LDL Cholesterol]"
        },
        "subject": {
          "reference": "Patient/ZKT9319"
        },
        "effectiveDateTime": "2023-03-05T00:00:00+00:00",
        "performer": [
          {
            "reference": "PractitionerRole/8363e64e-f639-4f55-bd3c-6302bf87a6d3"
          }
        ],
        "valueQuantity": {
          "value": 3.4,
          "unit": "mmol/L",
          "system": "http://unitsofmeasure.org",
          "code": "mmol/L"
        },
        "interpretation": [
          {
            "coding": [
              {
                "system": "http://terminology.hl7.org/CodeSystem/v3-ObservationInterpretation",
                "code": "H",
                "display": "High"
              }
            ]
          }
        ],
        "referenceRange": [
          {
            "text": "<1.8 mmol/L"
          }
        ]
      }
    },
    {
      "fullUrl": "https://terminz.azurewebsites.net/fhir/Observation/63ad8984-003c-4e44-bc56-31dd6abc0897",
      "resource": {
        "resourceType": "Observation",
        "id": "63ad8984-003c-4e44-bc56-31dd6abc0897",
        "text": {
          "status": "generated",
          "div": "<div xmlns='http://www.w3.org/1999/xhtml' xml:lang='en-NZ'> [HbA1c]</div>"
        },
        "status": "final",
        "category": [
          {
            "coding": [
              {
                "system": "http://terminology.hl7.org/CodeSystem/observation-category",
                "code": "laboratory"
              }
            ]
          }
        ],
        "code": {
          "text": "[HbA1c]"
        },
        "subject": {
          "reference": "Patient/ZKT9319"
        },
        "effectiveDateTime": "2023-03-05T00:00:00+00:00",
        "performer": [
          {
            "reference": "PractitionerRole/8363e64e-f639-4f55-bd3c-6302bf87a6d3"
          }
        ],
        "valueQuantity": {
          "value": 60,
          "unit": "mmol/mol",
          "system": "http://unitsofmeasure.org",
          "code": "mmol/mol"
        },
        "interpretation": [
          {
            "coding": [
              {
                "system": "http://terminology.hl7.org/CodeSystem/v3-ObservationInterpretation",
                "code": "H",
                "display": "High"
              }
            ]
          }
        ],
        "referenceRange": [
          {
            "text": "50 – 55 mmol/mol (diabetes)"
          }
        ]
      }
    },
    {
      "fullUrl": "https://terminz.azurewebsites.net/fhir/Observation/6f64547c-89a3-459d-a993-b89e995c1f14",
      "resource": {
        "resourceType": "Observation",
        "id": "6f64547c-89a3-459d-a993-b89e995c1f14",
        "text": {
          "status": "generated",
          "div": "<div xmlns='http://www.w3.org/1999/xhtml' xml:lang='en-NZ'>Body temperature</div>"
        },
        "status": "final",
        "category": [
          {
            "coding": [
              {
                "system": "http://terminology.hl7.org/CodeSystem/observation-category",
                "code": "vital-signs"
              }
            ]
          }
        ],
        "code": {
          "coding": [
            {
              "system": "http://loinc.org",
              "code": "8310-5",
              "display": "Body temperature"
            }
          ]
        },
        "subject": {
          "reference": "Patient/ZKT9319"
        },
        "effectiveDateTime": "2023-09-29T00:00:00+00:00",
        "performer": [
          {
            "reference": "PractitionerRole/c9288aea-5e73-4182-8231-aacbe50d3244"
          }
        ],
        "valueQuantity": {
          "value": 37.5,
          "unit": "Cel",
          "system": "http://unitsofmeasure.org",
          "code": "Cel"
        }
      }
    },
    {
      "fullUrl": "https://terminz.azurewebsites.net/fhir/Observation/da3bbb11-e485-4396-a25c-611354789c65",
      "resource": {
        "resourceType": "Observation",
        "id": "da3bbb11-e485-4396-a25c-611354789c65",
        "text": {
          "status": "generated",
          "div": "<div xmlns='http://www.w3.org/1999/xhtml' xml:lang='en-NZ'>Heart rate</div>"
        },
        "status": "final",
        "category": [
          {
            "coding": [
              {
                "system": "http://terminology.hl7.org/CodeSystem/observation-category",
                "code": "vital-signs"
              }
            ]
          }
        ],
        "code": {
          "coding": [
            {
              "system": "http://loinc.org",
              "code": "8867-4",
              "display": "Heart rate"
            }
          ]
        },
        "subject": {
          "reference": "Patient/ZKT9319"
        },
        "effectiveDateTime": "2023-09-29T00:00:00+00:00",
        "performer": [
          {
            "reference": "PractitionerRole/c9288aea-5e73-4182-8231-aacbe50d3244"
          }
        ],
        "valueQuantity": {
          "value": 84,
          "unit": "/min",
          "system": "http://unitsofmeasure.org",
          "code": "/min"
        }
      }
    },
    {
      "fullUrl": "https://terminz.azurewebsites.net/fhir/Observation/5dead0bd-80c7-42f7-9720-3aaf047eb89b",
      "resource": {
        "resourceType": "Observation",
        "id": "5dead0bd-80c7-42f7-9720-3aaf047eb89b",
        "text": {
          "status": "generated",
          "div": "<div xmlns='http://www.w3.org/1999/xhtml' xml:lang='en-NZ'>Respiratory rate</div>"
        },
        "status": "final",
        "category": [
          {
            "coding": [
              {
                "system": "http://terminology.hl7.org/CodeSystem/observation-category",
                "code": "vital-signs"
              }
            ]
          }
        ],
        "code": {
          "coding": [
            {
              "system": "http://loinc.org",
              "code": "9279-1",
              "display": "Respiratory rate"
            }
          ]
        },
        "subject": {
          "reference": "Patient/ZKT9319"
        },
        "effectiveDateTime": "2023-09-29T00:00:00+00:00",
        "performer": [
          {
            "reference": "PractitionerRole/c9288aea-5e73-4182-8231-aacbe50d3244"
          }
        ],
        "valueQuantity": {
          "value": 18,
          "unit": "/min",
          "system": "http://unitsofmeasure.org",
          "code": "/min"
        }
      }
    },
    {
      "fullUrl": "https://terminz.azurewebsites.net/fhir/Observation/126f25f0-d921-4d9a-85a2-5b847cfb89fb",
      "resource": {
        "resourceType": "Observation",
        "id": "126f25f0-d921-4d9a-85a2-5b847cfb89fb",
        "text": {
          "status": "generated",
          "div": "<div xmlns='http://www.w3.org/1999/xhtml' xml:lang='en-NZ'>Blood pressure panel with all children optional</div>"
        },
        "status": "final",
        "category": [
          {
            "coding": [
              {
                "system": "http://terminology.hl7.org/CodeSystem/observation-category",
                "code": "vital-signs"
              }
            ]
          }
        ],
        "code": {
          "coding": [
            {
              "system": "http://loinc.org",
              "code": "85354-9",
              "display": "Blood pressure panel with all children optional"
            }
          ]
        },
        "subject": {
          "reference": "Patient/ZKT9319"
        },
        "effectiveDateTime": "2023-09-29T00:00:00+00:00",
        "performer": [
          {
            "reference": "PractitionerRole/c9288aea-5e73-4182-8231-aacbe50d3244"
          }
        ],
        "component": [
          {
            "code": {
              "coding": [
                {
                  "system": "http://loinc.org",
                  "code": "8480-6",
                  "display": "Systolic blood pressure"
                }
              ]
            },
            "valueQuantity": {
              "value": 136,
              "unit": "mmHg",
              "system": "http://unitsofmeasure.org",
              "code": "mm[Hg]"
            }
          },
          {
            "code": {
              "coding": [
                {
                  "system": "http://loinc.org",
                  "code": "8462-4",
                  "display": "Diastolic blood pressure"
                }
              ]
            },
            "valueQuantity": {
              "value": 88,
              "unit": "mmHg",
              "system": "http://unitsofmeasure.org",
              "code": "mm[Hg]"
            }
          }
        ]
      }
    },
    {
      "fullUrl": "https://terminz.azurewebsites.net/fhir/Observation/cf628f81-f66b-42a7-a33a-c5d38a604861",
      "resource": {
        "resourceType": "Observation",
        "id": "cf628f81-f66b-42a7-a33a-c5d38a604861",
        "text": {
          "status": "generated",
          "div": "<div xmlns='http://www.w3.org/1999/xhtml' xml:lang='en-NZ'>Body height</div>"
        },
        "status": "final",
        "category": [
          {
            "coding": [
              {
                "system": "http://terminology.hl7.org/CodeSystem/observation-category",
                "code": "vital-signs"
              }
            ]
          }
        ],
        "code": {
          "coding": [
            {
              "system": "http://loinc.org",
              "code": "8302-2",
              "display": "Body height"
            }
          ]
        },
        "subject": {
          "reference": "Patient/ZKT9319"
        },
        "effectiveDateTime": "2023-09-29T00:00:00+00:00",
        "performer": [
          {
            "reference": "PractitionerRole/c9288aea-5e73-4182-8231-aacbe50d3244"
          }
        ],
        "valueQuantity": {
          "value": 1.84,
          "unit": "cm",
          "system": "http://unitsofmeasure.org",
          "code": "cm"
        }
      }
    },
    {
      "fullUrl": "https://terminz.azurewebsites.net/fhir/Observation/dd309bef-3b36-4422-a202-39d040113a5d",
      "resource": {
        "resourceType": "Observation",
        "id": "dd309bef-3b36-4422-a202-39d040113a5d",
        "text": {
          "status": "generated",
          "div": "<div xmlns='http://www.w3.org/1999/xhtml' xml:lang='en-NZ'>Body weight</div>"
        },
        "status": "final",
        "category": [
          {
            "coding": [
              {
                "system": "http://terminology.hl7.org/CodeSystem/observation-category",
                "code": "vital-signs"
              }
            ]
          }
        ],
        "code": {
          "coding": [
            {
              "system": "http://loinc.org",
              "code": "29463-7",
              "display": "Body weight"
            }
          ]
        },
        "subject": {
          "reference": "Patient/ZKT9319"
        },
        "effectiveDateTime": "2023-09-29T00:00:00+00:00",
        "performer": [
          {
            "reference": "PractitionerRole/c9288aea-5e73-4182-8231-aacbe50d3244"
          }
        ],
        "valueQuantity": {
          "value": 104,
          "unit": "kg",
          "system": "http://unitsofmeasure.org",
          "code": "kg"
        }
      }
    },
    {
      "fullUrl": "https://terminz.azurewebsites.net/fhir/Observation/4c5e0a16-2e2c-47cc-8e1d-a87afee4d6f1",
      "resource": {
        "resourceType": "Observation",
        "id": "4c5e0a16-2e2c-47cc-8e1d-a87afee4d6f1",
        "text": {
          "status": "generated",
          "div": "<div xmlns='http://www.w3.org/1999/xhtml' xml:lang='en-NZ'>Body temperature</div>"
        },
        "status": "final",
        "category": [
          {
            "coding": [
              {
                "system": "http://terminology.hl7.org/CodeSystem/observation-category",
                "code": "vital-signs"
              }
            ]
          }
        ],
        "code": {
          "coding": [
            {
              "system": "http://loinc.org",
              "code": "8310-5",
              "display": "Body temperature"
            }
          ]
        },
        "subject": {
          "reference": "Patient/ZKT9319"
        },
        "effectiveDateTime": "2023-03-05T00:00:00+00:00",
        "performer": [
          {
            "reference": "PractitionerRole/c9288aea-5e73-4182-8231-aacbe50d3244"
          }
        ],
        "valueQuantity": {
          "value": 37.2,
          "unit": "Cel",
          "system": "http://unitsofmeasure.org",
          "code": "Cel"
        }
      }
    },
    {
      "fullUrl": "https://terminz.azurewebsites.net/fhir/Observation/eda3092b-5228-420b-b0ce-f5eb77e73942",
      "resource": {
        "resourceType": "Observation",
        "id": "eda3092b-5228-420b-b0ce-f5eb77e73942",
        "text": {
          "status": "generated",
          "div": "<div xmlns='http://www.w3.org/1999/xhtml' xml:lang='en-NZ'>Heart rate</div>"
        },
        "status": "final",
        "category": [
          {
            "coding": [
              {
                "system": "http://terminology.hl7.org/CodeSystem/observation-category",
                "code": "vital-signs"
              }
            ]
          }
        ],
        "code": {
          "coding": [
            {
              "system": "http://loinc.org",
              "code": "8867-4",
              "display": "Heart rate"
            }
          ]
        },
        "subject": {
          "reference": "Patient/ZKT9319"
        },
        "effectiveDateTime": "2023-03-05T00:00:00+00:00",
        "performer": [
          {
            "reference": "PractitionerRole/c9288aea-5e73-4182-8231-aacbe50d3244"
          }
        ],
        "valueQuantity": {
          "value": 86,
          "unit": "/min",
          "system": "http://unitsofmeasure.org",
          "code": "/min"
        }
      }
    },
    {
      "fullUrl": "https://terminz.azurewebsites.net/fhir/Observation/2d420435-f380-46e1-ad93-b9fef57f4b71",
      "resource": {
        "resourceType": "Observation",
        "id": "2d420435-f380-46e1-ad93-b9fef57f4b71",
        "text": {
          "status": "generated",
          "div": "<div xmlns='http://www.w3.org/1999/xhtml' xml:lang='en-NZ'>Respiratory rate</div>"
        },
        "status": "final",
        "category": [
          {
            "coding": [
              {
                "system": "http://terminology.hl7.org/CodeSystem/observation-category",
                "code": "vital-signs"
              }
            ]
          }
        ],
        "code": {
          "coding": [
            {
              "system": "http://loinc.org",
              "code": "9279-1",
              "display": "Respiratory rate"
            }
          ]
        },
        "subject": {
          "reference": "Patient/ZKT9319"
        },
        "effectiveDateTime": "2023-03-05T00:00:00+00:00",
        "performer": [
          {
            "reference": "PractitionerRole/c9288aea-5e73-4182-8231-aacbe50d3244"
          }
        ],
        "valueQuantity": {
          "value": 14,
          "unit": "/min",
          "system": "http://unitsofmeasure.org",
          "code": "/min"
        }
      }
    },
    {
      "fullUrl": "https://terminz.azurewebsites.net/fhir/Observation/7a422837-80f5-4fa6-b3ac-8a0e44b99356",
      "resource": {
        "resourceType": "Observation",
        "id": "7a422837-80f5-4fa6-b3ac-8a0e44b99356",
        "text": {
          "status": "generated",
          "div": "<div xmlns='http://www.w3.org/1999/xhtml' xml:lang='en-NZ'>Blood pressure panel with all children optional</div>"
        },
        "status": "final",
        "category": [
          {
            "coding": [
              {
                "system": "http://terminology.hl7.org/CodeSystem/observation-category",
                "code": "vital-signs"
              }
            ]
          }
        ],
        "code": {
          "coding": [
            {
              "system": "http://loinc.org",
              "code": "85354-9",
              "display": "Blood pressure panel with all children optional"
            }
          ]
        },
        "subject": {
          "reference": "Patient/ZKT9319"
        },
        "effectiveDateTime": "2023-03-05T00:00:00+00:00",
        "performer": [
          {
            "reference": "PractitionerRole/c9288aea-5e73-4182-8231-aacbe50d3244"
          }
        ],
        "component": [
          {
            "code": {
              "coding": [
                {
                  "system": "http://loinc.org",
                  "code": "8480-6",
                  "display": "Systolic blood pressure"
                }
              ]
            },
            "valueQuantity": {
              "value": 130,
              "unit": "mmHg",
              "system": "http://unitsofmeasure.org",
              "code": "mm[Hg]"
            }
          },
          {
            "code": {
              "coding": [
                {
                  "system": "http://loinc.org",
                  "code": "8462-4",
                  "display": "Diastolic blood pressure"
                }
              ]
            },
            "valueQuantity": {
              "value": 82,
              "unit": "mmHg",
              "system": "http://unitsofmeasure.org",
              "code": "mm[Hg]"
            }
          }
        ]
      }
    },
    {
      "fullUrl": "https://terminz.azurewebsites.net/fhir/Observation/af9ae822-ae5d-4bec-88bf-4dd250350783",
      "resource": {
        "resourceType": "Observation",
        "id": "af9ae822-ae5d-4bec-88bf-4dd250350783",
        "text": {
          "status": "generated",
          "div": "<div xmlns='http://www.w3.org/1999/xhtml' xml:lang='en-NZ'>Body weight</div>"
        },
        "status": "final",
        "category": [
          {
            "coding": [
              {
                "system": "http://terminology.hl7.org/CodeSystem/observation-category",
                "code": "vital-signs"
              }
            ]
          }
        ],
        "code": {
          "coding": [
            {
              "system": "http://loinc.org",
              "code": "29463-7",
              "display": "Body weight"
            }
          ]
        },
        "subject": {
          "reference": "Patient/ZKT9319"
        },
        "effectiveDateTime": "2023-03-05T00:00:00+00:00",
        "performer": [
          {
            "reference": "PractitionerRole/c9288aea-5e73-4182-8231-aacbe50d3244"
          }
        ],
        "valueQuantity": {
          "value": 103,
          "unit": "kg",
          "system": "http://unitsofmeasure.org",
          "code": "kg"
        }
      }
    },
    {
      "fullUrl": "https://terminz.azurewebsites.net/fhir/Observation/33624327-7e1b-4912-bca1-2d0c8d36b952",
      "resource": {
        "resourceType": "Observation",
        "id": "33624327-7e1b-4912-bca1-2d0c8d36b952",
        "text": {
          "status": "generated",
          "div": "<div xmlns='http://www.w3.org/1999/xhtml' xml:lang='en-NZ'>Tobacco smoking status</div>"
        },
        "status": "final",
        "category": [
          {
            "coding": [
              {
                "system": "http://terminology.hl7.org/CodeSystem/observation-category",
                "code": "social-history"
              }
            ]
          }
        ],
        "code": {
          "coding": [
            {
              "system": "http://loinc.org",
              "code": "72166-2",
              "display": "Tobacco smoking status"
            }
          ]
        },
        "subject": {
          "reference": "Patient/ZKT9319"
        },
        "effectiveDateTime": "2005-06-30",
        "performer": [
          {
            "reference": "Patient/ZKT9319"
          }
        ],
        "valueCodeableConcept": {
          "coding": [
            {
              "system": "http://loinc.org",
              "code": "LA15920-4",
              "display": "Former smoker"
            }
          ]
        },
        "note": [
          {
            "text": "30 - pack - year smoking history, quit smoking ~2005."
          }
        ]
      }
    },
    {
      "fullUrl": "https://terminz.azurewebsites.net/fhir/PractitionerRole/8363e64e-f639-4f55-bd3c-6302bf87a6d3",
      "resource": {
        "resourceType": "PractitionerRole",
        "id": "8363e64e-f639-4f55-bd3c-6302bf87a6d3",
        "text": {
          "status": "generated",
          "div": "<div xmlns='http://www.w3.org/1999/xhtml' xml:lang='en-NZ'>Role: Clinical pathologist</div>"
        },
        "code": [
          {
            "coding": [
              {
                "system": "http://snomed.info/sct",
                "code": "81464008",
                "display": "Clinical pathologist"
              }
            ]
          }
        ]
      }
    }
  ]
}